Folder: test

File: pencil_electrode_first (Copy).csv
Wavelength [nm],Intensity (a.u)
181.232,367.98
184.668,31.1664
188.104,35.2423
191.538,124.829
194.972,203.461
198.405,-58.6827
201.836,119.736
205.267,240.309
208.697,-16.2475
212.126,12.0304
215.554,97.6752
218.981,-132.234
222.407,223.356
225.832,217.038
229.256,59.0463
232.679,30.086
236.102,350.462
239.523,235.107
242.943,242.762
246.362,451.385
249.781,304.512
253.198,18.7086
256.614,112.059
260.030,184.468
263.444,128.642
266.858,228.207
270.270,162.941
273.681,11.8025
277.092,545.241
280.501,335.89
283.910,280.651
287.317,329.815
290.724,109.038
294.129,1246.01
297.533,3372.73
300.937,256.468
304.339,289.677
307.740,712.693
311.141,4924.14
314.540,16018.7
317.938,633.379
321.336,287.039
324.732,515.767
328.127,1158.24
331.521,1739.67
334.914,14095.9
338.306,8905.12
341.697,1019.29
345.087,683.063
348.476,1070.11
351.864,4749.62
355.251,9325.2
358.636,10826.5
362.021,823.656
365.405,1130.77
368.787,1097.42
372.169,1422.2
375.549,10612.7
378.928,9395.69
382.307,444.881
385.684,572.167
389.060,1293.86
392.435,1188.7
395.809,181.885
399.181,5023.98
402.553,923.598
405.924,4386.55
409.293,294.682
412.662,443.175
416.029,-54.1107
419.395,953.51
422.760,349.473
426.124,1536
429.487,304.637
432.849,764.79
436.210,282.865
439.569,307.11
442.928,148.937
446.285,219.515
449.641,-42.3017
452.996,218.138
456.350,167.915
459.703,163.925
463.054,121.79
466.405,218.088
469.754,35.8587
473.102,439.942
476.449,242.197
479.795,213.927
483.140,54.9169
486.484,284.758
489.826,25.5653
493.167,109.612
496.507,123.024
499.846,253.774
503.184,249.486
506.521,162.485
509.856,56.7012
513.190,395.435
516.523,-0.457813
519.855,222.405
523.186,380.097
526.515,639.818
529.843,93.8647
533.170,232.566
536.496,189.656
539.821,365.724
543.145,163.017
546.467,186.233
549.788,169.444
553.108,262.98
556.426,170.298
559.744,198.86
563.060,114.749
566.375,357.98
569.689,-75.7266
573.001,262.541
576.313,157.651
579.623,308.091
582.932,175.497
586.239,391.873
589.546,-155.628
592.851,107.317
596.155,113.633
599.457,270.705
602.759,52.3664
606.059,319.053
609.358,13.2623
612.656,154.397
615.952,-11.9183
619.247,223.844
622.541,19.0309
625.834,1288.55
629.125,146.752
632.415,-49.7507
635.704,-80.7659
638.991,357.942
642.278,71.8522
645.562,88.5163
648.846,38.847
652.129,246.178
655.410,335.508
658.689,376.506
661.968,172.503
665.245,280.834
668.521,282.165
671.796,116.829
675.069,207.16
678.341,227.824
681.612,21.8211
684.881,254.152
688.149,80.8159
691.416,59.8133
694.681,-188.856
697.945,95.1415
701.208,13.4722
704.469,-42.5304
707.729,-26.8663
710.988,267.798
714.246,7.12851
717.502,133.793
720.756,122.123
724.010,226.121
727.262,-129.215
730.513,159.782
733.762,184.446
737.010,231.777
740.257,-20.2255
743.502,98.4385
746.746,111.436
749.988,225.1
753.229,81.0974
756.469,145.428
759.708,182.092
762.945,482.09
766.180,72.4204
769.415,213.084
772.648,102.415
775.879,195.746
779.109,76.7434
782.338,45.4074
785.565,117.738
788.791,302.069
792.016,-31.6003
795.239,119.73
798.461,-104.272
801.681,83.3919
804.900,155.723
808.118,94.72
811.334,201.384
814.548,404.382
817.762,140.379
820.974,107.376
824.184,141.04
827.393,113.704
830.601,152.702
833.807,670.033
837.011,40.3634
840.215,56.6941
843.417,-35.6418
846.617,8.35562
849.816,193.02
853.013,256.35
856.209,183.348
859.404,201.679
862.597,71.3427
865.789,310.007
868.979,61.3375
872.168,133.335
875.355,52
878.541,132.333
881.725,66.6667
884.908,277.667
888.089,71.6667
891.269,116.667
894.448,256.667
897.625,0.333333
900.800,349.667
903.974,269.667
907.146,186
910.317,119.333
913.487,-42
916.655,103.667
919.821,62.3333
922.986,77.3333
926.150,170.667
929.312,171
932.472,2.33333
935.631,274.667
938.788,22
941.944,136
945.099,20.6667
948.252,175.333
951.403,-20
954.553,94.6667
957.701,128.333
960.848,174.667
963.993,-19
967.136,140
970.278,-26.6667
973.419,305.667
976.558,638
979.695,149.333
982.831,-30.3333
985.965,148
989.098,127.667
992.229,106.667
995.359,-161.667
998.487,138
1001.614,-33.3333
1004.738,87.3333
1007.862,-38.6667
1010.984,286.333
1014.104,-12.3333
1017.222,254.333
1020.339,-70.6667
1023.455,71
1026.569,110
1029.681,145.333
1032.791,119
1035.901,269.667
1039.008,28
1042.114,298.333
1045.218,76.6667
1048.321,211.333
1051.422,106.333
1054.521,251
1057.619,215.333
1060.715,356
1063.809,-32
1066.902,255
1069.994,-103.333
1073.083,275
1076.171,5.33333
1079.258,-7.66667
1082.342,2.33333
1085.426,277.667
1088.507,46.3333
1091.587,142.333
1094.665,64
1097.741,-2.33333
1100.202,329

File: water_electrode_1mm_first (Copy).csv
Wavelength [nm],Intensity
181.232,263.979
184.668,39.493
188.104,41.5719
191.538,77.5025
194.972,261.466
198.405,-17.3366
201.836,107.406
205.267,172.642
208.697,47.4361
212.126,63.0316
215.554,178.356
218.981,-75.883
222.407,236.691
225.832,290.372
229.256,1.38145
232.679,43.0895
236.102,417.8
239.523,219.778
242.943,172.766
246.362,373.387
249.781,345.519
253.198,25.0436
256.614,194.062
260.030,228.807
263.444,114.974
266.858,202.535
270.270,171.952
273.681,-86.8587
277.092,578.251
280.501,488.886
283.910,324.663
287.317,393.168
290.724,319.372
294.129,1788.36
297.533,8132.39
300.937,458.141
304.339,591.011
307.740,1290.04
311.141,7945.81
314.540,38630.1
317.938,1973.73
321.336,560.041
324.732,798.118
328.127,3015.25
331.521,3020.68
334.914,26637.3
338.306,45895.8
341.697,3623.96
345.087,2473.73
348.476,2948.44
351.864,10952.9
355.251,17311.9
358.636,36091.8
362.021,3484.34
365.405,2825.44
368.787,2748.1
372.169,3391.86
375.549,32571.1
378.928,23041.1
382.307,1467.26
385.684,1270.53
389.060,3582.56
392.435,3441.06
395.809,670.227
399.181,15393.7
402.553,1415.96
405.924,14889.3
409.293,596.03
412.662,861.209
416.029,80.2316
419.395,3005.86
422.760,515.826
426.124,5734.35
429.487,455.996
432.849,2191.81
436.210,423.873
439.569,441.128
442.928,255.961
446.285,310.535
449.641,175.38
452.996,239.49
456.350,1131.91
459.703,210.602
463.054,255.129
466.405,892.772
469.754,123.547
473.102,397.607
476.449,176.205
479.795,322.937
483.140,144.247
486.484,311.095
489.826,221.908
493.167,60.9569
496.507,190.371
499.846,260.112
503.184,351.159
506.521,190.158
509.856,107.716
513.190,401.772
516.523,135.551
519.855,291.408
523.186,392.767
526.515,599.157
529.843,123.873
533.170,234.242
536.496,196.336
539.821,430.073
543.145,177.351
546.467,191.576
549.788,183.782
553.108,228.659
556.426,206.643
559.744,296.201
563.060,248.752
566.375,305.326
569.689,9.9376
573.001,234.55
576.313,176.997
579.623,342.095
582.932,218.17
586.239,387.214
589.546,-197.293
592.851,191.316
596.155,78.6446
599.457,279.72
602.759,122.048
606.059,372.055
609.358,43.6062
612.656,199.079
615.952,6.08496
619.247,175.852
622.541,49.7123
625.834,1112.22
629.125,263.769
632.415,46.5927
635.704,-61.4231
638.991,416.286
642.278,121.86
645.562,140.19
648.846,71.1876
652.129,275.852
655.410,292.182
658.689,504.513
661.968,380.177
665.245,308.174
668.521,497.171
671.796,113.169
675.069,341.833
678.341,384.163
681.612,122.494
684.881,290.825
688.149,104.822
691.416,77.1526
694.681,-162.85
697.945,167.147
701.208,25.1445
704.469,-105.858
707.729,8.80575
710.988,299.47
714.246,23.8004
717.502,246.798
720.756,144.128
724.010,234.792
727.262,-57.5438
730.513,172.787
733.762,263.784
737.010,411.448
740.257,30.7788
743.502,78.4428
746.746,235.773
749.988,409.771
753.229,117.101
756.469,153.765
759.708,224.429
762.945,535.093
766.180,74.7572
769.415,324.421
772.648,268.085
775.879,218.416
779.109,48.7465
782.338,17.4104
785.565,122.408
788.791,271.072
792.016,-14.2643
795.239,72.0663
798.461,-167.603
801.681,82.7276
804.900,90.3916
808.118,189.389
811.334,176.053
814.548,351.05
817.762,163.047
820.974,166.045
824.184,132.709
827.393,163.373
830.601,194.037
833.807,589.701
837.011,24.6979
840.215,42.0286
843.417,-9.30746
846.617,43.3565
849.816,184.687
853.013,243.351
856.209,198.682
859.404,138.679
862.597,110.343
865.789,389.34
868.979,116.671
872.168,180.002
875.355,14
878.541,108
881.725,111.333
884.908,215
888.089,96.6667
891.269,182.333
894.448,137.333
897.625,66.3333
900.800,320.667
903.974,217.333
907.146,192.667
910.317,109.667
913.487,19.6667
916.655,89
919.821,53
922.986,59
926.150,207
929.312,186.667
932.472,-95
935.631,177.333
938.788,31.3333
941.944,141.667
945.099,-10.3333
948.252,191
951.403,-13
954.553,128.333
957.701,66
960.848,102.667
963.993,-45.6667
967.136,79
970.278,-13.6667
973.419,183.333
976.558,529.667
979.695,105.333
982.831,-56.6667
985.965,97.3333
989.098,136
992.229,169.333
995.359,-162
998.487,163.333
1001.614,-119.667
1004.738,45.6667
1007.862,34.6667
1010.984,251.333
1014.104,-9.66667
1017.222,180.667
1020.339,-36.6667
1023.455,88.3333
1026.569,72.3333
1029.681,119.333
1032.791,125.333
1035.901,203.333
1039.008,21.3333
1042.114,214.333
1045.218,7.66667
1048.321,68.6667
1051.422,144.333
1054.521,278.667
1057.619,175.333
1060.715,322.667
1063.809,-18.6667
1066.902,257.667
1069.994,-112
1073.083,267.333
1076.171,30
1079.258,62
1082.342,-14.6667
1085.426,206.667
1088.507,2.66667
1091.587,111
1094.665,-43.3333
1097.741,18.3333
1100.202,287